stimuli,trial_type,stimulus_onset,block_type,stimulus_size,stimulus_duration,cor_res,experiment.thisRepN,experiment.thisTrialN,experiment.thisN,experiment.thisIndex,thisRow.t,notes,trial.started,Stimuli.started,Stimuli.stopped,trial.stopped,participant,session,date,expName,psychopyVersion,frameRate,expStart,
png,cue,0.0,cue,0.2,2.0,None,0,0,0,0,0.34332990646362305,,0.03744101524353027,0.34332990646362305,2.4198310375213623,2.338231086730957,215757,001,2024-04-15_14h22.41.289,run_experiment,2023.2.3,60.00709617607673,2024-04-15 14h22.48.853860 +0200,
U,non-target,2.0,0-back,0.3,2.8,right,0,1,1,1,2.4198310375213623,,2.339020013809204,2.4198310375213623,5.295083999633789,5.219125986099243,215757,001,2024-04-15_14h22.41.289,run_experiment,2023.2.3,60.00709617607673,2024-04-15 14h22.48.853860 +0200,
+,fixation,4.8,0-back,0.1,0.2,None,0,2,2,2,5.295083999633789,,5.219948053359985,5.295083999633789,5.506853103637695,5.485505104064941,215757,001,2024-04-15_14h22.41.289,run_experiment,2023.2.3,60.00709617607673,2024-04-15 14h22.48.853860 +0200,
P,non-target,5.0,0-back,0.3,2.8,right,0,3,3,3,5.506853103637695,,5.486232042312622,5.506853103637695,8.324156045913696,8.30066704750061,215757,001,2024-04-15_14h22.41.289,run_experiment,2023.2.3,60.00709617607673,2024-04-15 14h22.48.853860 +0200,
+,fixation,7.8,0-back,0.1,0.2,None,0,4,4,4,8.324156045913696,,8.301571130752563,8.324156045913696,8.541568994522095,8.517184019088745,215757,001,2024-04-15_14h22.41.289,run_experiment,2023.2.3,60.00709617607673,2024-04-15 14h22.48.853860 +0200,
T,non-target,8.0,0-back,0.3,2.8,right,0,5,5,5,8.541568994522095,,8.518085956573486,8.541568994522095,11.354144096374512,11.331236124038696,215757,001,2024-04-15_14h22.41.289,run_experiment,2023.2.3,60.00709617607673,2024-04-15 14h22.48.853860 +0200,
+,fixation,10.8,0-back,0.1,0.2,None,0,6,6,6,11.354144096374512,,11.332149028778076,11.354144096374512,11.572221994400024,11.547760009765625,215757,001,2024-04-15_14h22.41.289,run_experiment,2023.2.3,60.00709617607673,2024-04-15 14h22.48.853860 +0200,
X,target,11.0,0-back,0.3,2.8,left,0,7,7,7,11.572221994400024,,11.54870891571045,11.572221994400024,14.386688947677612,14.36279010772705,215757,001,2024-04-15_14h22.41.289,run_experiment,2023.2.3,60.00709617607673,2024-04-15 14h22.48.853860 +0200,
+,fixation,13.8,0-back,0.1,0.2,None,0,8,8,8,14.386688947677612,,14.363796949386597,14.386688947677612,14.640912055969238,14.578917026519775,215757,001,2024-04-15_14h22.41.289,run_experiment,2023.2.3,60.00709617607673,2024-04-15 14h22.48.853860 +0200,
Q,non-target,14.0,0-back,0.3,2.8,right,0,9,9,9,14.640912055969238,,14.579914093017578,14.640912055969238,17.455764055252075,17.42655301094055,215757,001,2024-04-15_14h22.41.289,run_experiment,2023.2.3,60.00709617607673,2024-04-15 14h22.48.853860 +0200,
+,fixation,16.8,0-back,0.1,0.2,None,0,10,10,10,17.455764055252075,,17.427803993225098,17.455764055252075,17.673727989196777,17.643045902252197,215757,001,2024-04-15_14h22.41.289,run_experiment,2023.2.3,60.00709617607673,2024-04-15 14h22.48.853860 +0200,
X,target,17.0,0-back,0.3,2.8,left,0,11,11,11,17.673727989196777,,17.64428210258484,17.673727989196777,20.48002004623413,20.45772695541382,215757,001,2024-04-15_14h22.41.289,run_experiment,2023.2.3,60.00709617607673,2024-04-15 14h22.48.853860 +0200,
+,fixation,19.8,0-back,0.1,0.2,None,0,12,12,12,20.48002004623413,,20.458569049835205,20.48002004623413,20.695688009262085,20.673768043518066,215757,001,2024-04-15_14h22.41.289,run_experiment,2023.2.3,60.00709617607673,2024-04-15 14h22.48.853860 +0200,
X,target,20.0,0-back,0.3,2.8,left,0,13,13,13,20.695688009262085,,20.674604892730713,20.695688009262085,23.51160192489624,23.488651990890503,215757,001,2024-04-15_14h22.41.289,run_experiment,2023.2.3,60.00709617607673,2024-04-15 14h22.48.853860 +0200,
+,fixation,22.8,0-back,0.1,0.2,None,0,14,14,14,23.51160192489624,,23.489500045776367,23.51160192489624,23.760941982269287,23.70489001274109,215757,001,2024-04-15_14h22.41.289,run_experiment,2023.2.3,60.00709617607673,2024-04-15 14h22.48.853860 +0200,
Q,non-target,23.0,0-back,0.3,2.8,right,0,15,15,15,23.760941982269287,,23.705727100372314,23.760941982269287,26.573867082595825,26.552398920059204,215757,001,2024-04-15_14h22.41.289,run_experiment,2023.2.3,60.00709617607673,2024-04-15 14h22.48.853860 +0200,
+,fixation,25.8,0-back,0.1,0.2,None,0,16,16,16,26.573867082595825,,26.553191900253296,26.573867082595825,26.790728092193604,26.76884412765503,215757,001,2024-04-15_14h22.41.289,run_experiment,2023.2.3,60.00709617607673,2024-04-15 14h22.48.853860 +0200,
X,target,26.0,0-back,0.3,2.8,left,0,17,17,17,26.790728092193604,,26.769635915756226,26.790728092193604,29.603976011276245,29.583153009414673,215757,001,2024-04-15_14h22.41.289,run_experiment,2023.2.3,60.00709617607673,2024-04-15 14h22.48.853860 +0200,
+,fixation,28.8,0-back,0.1,0.2,None,0,18,18,18,29.603976011276245,,29.5839741230011,29.603976011276245,29.820579051971436,29.799782037734985,215757,001,2024-04-15_14h22.41.289,run_experiment,2023.2.3,60.00709617607673,2024-04-15 14h22.48.853860 +0200,
X,target,29.0,0-back,0.3,2.8,left,0,19,19,19,29.820579051971436,,29.800573110580444,29.820579051971436,32.63858199119568,32.614778995513916,215757,001,2024-04-15_14h22.41.289,run_experiment,2023.2.3,60.00709617607673,2024-04-15 14h22.48.853860 +0200,
+,rest,31.8,rest,0.1,10.0,None,0,20,20,20,32.63858199119568,,32.61568593978882,32.63858199119568,42.654232025146484,42.62315392494202,215757,001,2024-04-15_14h22.41.289,run_experiment,2023.2.3,60.00709617607673,2024-04-15 14h22.48.853860 +0200,
png,cue,41.8,cue,0.2,2.0,None,0,21,21,21,42.654232025146484,,42.62408804893494,42.654232025146484,44.67537593841553,44.6381459236145,215757,001,2024-04-15_14h22.41.289,run_experiment,2023.2.3,60.00709617607673,2024-04-15 14h22.48.853860 +0200,
Q,non-target,43.8,1-back,0.3,2.8,right,0,22,22,22,44.67537593841553,,44.63897109031677,44.67537593841553,47.49089193344116,47.469027042388916,215757,001,2024-04-15_14h22.41.289,run_experiment,2023.2.3,60.00709617607673,2024-04-15 14h22.48.853860 +0200,
+,fixation,46.6,1-back,0.1,0.2,None,0,23,23,23,47.49089193344116,,47.46981692314148,47.49089193344116,47.70519208908081,47.68558406829834,215757,001,2024-04-15_14h22.41.289,run_experiment,2023.2.3,60.00709617607673,2024-04-15 14h22.48.853860 +0200,
Z,non-target,46.8,1-back,0.3,2.8,right,0,24,24,24,47.70519208908081,,47.686352014541626,47.70519208908081,50.5290310382843,50.500646114349365,215757,001,2024-04-15_14h22.41.289,run_experiment,2023.2.3,60.00709617607673,2024-04-15 14h22.48.853860 +0200,
+,fixation,49.6,1-back,0.1,0.2,None,0,25,25,25,50.5290310382843,,50.50152897834778,50.5290310382843,50.739449977874756,50.716779947280884,215757,001,2024-04-15_14h22.41.289,run_experiment,2023.2.3,60.00709617607673,2024-04-15 14h22.48.853860 +0200,
Z,target,49.8,1-back,0.3,2.8,left,0,26,26,26,50.739449977874756,,50.717653036117554,50.739449977874756,53.55265402793884,53.53098011016846,215757,001,2024-04-15_14h22.41.289,run_experiment,2023.2.3,60.00709617607673,2024-04-15 14h22.48.853860 +0200,
+,fixation,52.6,1-back,0.1,0.2,None,0,27,27,27,53.55265402793884,,53.53174304962158,53.55265402793884,53.76661491394043,53.74722695350647,215757,001,2024-04-15_14h22.41.289,run_experiment,2023.2.3,60.00709617607673,2024-04-15 14h22.48.853860 +0200,
Z,target,52.8,1-back,0.3,2.8,left,0,28,28,28,53.76661491394043,,53.74802589416504,53.76661491394043,56.582271099090576,56.561721086502075,215757,001,2024-04-15_14h22.41.289,run_experiment,2023.2.3,60.00709617607673,2024-04-15 14h22.48.853860 +0200,
+,fixation,55.6,1-back,0.1,0.2,None,0,29,29,29,56.582271099090576,,56.5624361038208,56.582271099090576,56.798502922058105,56.778451919555664,215757,001,2024-04-15_14h22.41.289,run_experiment,2023.2.3,60.00709617607673,2024-04-15 14h22.48.853860 +0200,
,,,,,,,,,,,56.798502922058105,,56.7792329788208,56.798502922058105,,,,,,,,,,
